OOIBase32 Version 1.0.0.8 Data File
++++++++++++++++++++++++++++++++++++
Date: Wednesday, January 23, 1980, 07:57:19
User: Valued Ocean Optics Customer
Spectrometer Serial Number: Unknown
Spectrometer Channel: Master
Integration Time (msec): 40
Spectra Averaged: 20
Boxcar Smoothing: 0
Correct for Electrical Dark: Disabled
Time Normalized: Disabled
Dual-beam Reference: Disabled
Reference Channel: Master
>>>>>Begin Spectral Data<<<<<
380.33	60.9500
380.69	60.0000
381.05	60.8500
381.41	61.4500
381.77	60.4500
382.13	61.8000
382.49	61.1500
382.85	61.7000
383.21	61.7000
383.57	61.4500
383.94	60.6000
384.30	59.9500
384.66	62.0000
385.02	62.4500
385.38	62.0000
385.74	61.2500
386.10	61.9500
386.46	60.5500
386.82	60.8000
387.18	59.9500
387.54	59.9000
387.90	59.4500
388.26	61.4000
388.62	62.3000
388.98	61.2000
389.34	61.4500
389.70	61.1500
390.06	60.9000
390.42	60.9000
390.78	60.5000
391.14	60.5500
391.50	62.1000
391.86	61.8500
392.22	60.8500
392.58	61.5000
392.94	61.9000
393.30	62.0000
393.66	60.4000
394.02	61.0500
394.38	60.1000
394.74	60.4000
395.10	61.2000
395.46	61.0500
395.82	60.9000
396.18	60.0000
396.54	60.9500
396.90	61.0000
397.26	60.1000
397.62	60.9000
397.98	61.9000
398.34	62.2000
398.70	60.5500
399.05	61.9500
399.41	61.1500
399.77	61.0000
400.13	60.4500
400.49	60.7500
400.85	61.2000
401.21	60.5500
401.57	62.4500
401.93	60.9000
402.29	61.1500
402.65	61.5000
403.00	61.7500
403.36	61.5000
403.72	61.1000
404.08	60.9500
404.44	61.5500
404.80	61.9000
405.16	61.6000
405.52	60.8500
405.87	61.8500
406.23	63.1000
406.59	62.2000
406.95	61.5500
407.31	61.0000
407.67	59.9500
408.03	61.3000
408.38	62.5000
408.74	61.7000
409.10	62.3500
409.46	61.4000
409.82	62.6500
410.17	61.1000
410.53	60.1000
410.89	60.4500
411.25	60.6500
411.61	60.6500
411.97	62.2500
412.32	61.1500
412.68	61.8500
413.04	60.6500
413.40	61.6500
413.75	61.9000
414.11	61.1500
414.47	60.5500
414.83	61.0000
415.19	61.7500
415.54	61.6500
415.90	61.3000
416.26	62.1000
416.62	61.0500
416.97	60.5500
417.33	60.8500
417.69	61.2000
418.05	61.6500
418.40	60.5500
418.76	60.7000
419.12	61.7000
419.48	61.1500
419.83	61.0500
420.19	60.4500
420.55	61.9000
420.90	60.9500
421.26	60.9000
421.62	62.6000
421.98	61.2500
422.33	61.5000
422.69	60.4500
423.05	60.4500
423.40	60.2000
423.76	60.6000
424.12	61.6500
424.47	61.5000
424.83	63.3500
425.19	61.7500
425.54	62.4000
425.90	62.8000
426.26	62.1000
426.61	60.9500
426.97	61.3500
427.33	60.8000
427.68	61.8500
428.04	59.8000
428.40	61.3500
428.75	62.0000
429.11	60.6500
429.47	61.4500
429.82	62.6000
430.18	60.4000
430.53	60.3500
430.89	61.0500
431.25	62.2000
431.60	61.8000
431.96	61.8500
432.31	62.1500
432.67	60.9500
433.03	61.1500
433.38	60.8000
433.74	60.7500
434.09	61.8000
434.45	61.5500
434.81	60.6500
435.16	61.1500
435.52	62.0500
435.87	62.0000
436.23	61.1500
436.58	61.6000
436.94	61.3000
437.30	60.8000
437.65	60.6000
438.01	61.9000
438.36	61.2500
438.72	62.0500
439.07	61.5500
439.43	60.7500
439.78	61.4500
440.14	60.3500
440.49	61.3500
440.85	61.0000
441.20	62.0500
441.56	61.6000
441.91	61.5000
442.27	61.3500
442.62	61.5500
442.98	60.9000
443.33	61.2500
443.69	60.9500
444.04	85.9500
444.40	62.9500
444.75	63.1000
445.11	62.1500
445.46	61.4500
445.82	61.4000
446.17	60.9500
446.53	60.5500
446.88	61.7000
447.23	61.1500
447.59	60.9000
447.94	61.4500
448.30	62.1000
448.65	62.0500
449.01	61.2500
449.36	61.1000
449.72	62.0000
450.07	61.5500
450.42	61.2500
450.78	61.7500
451.13	60.9000
451.49	62.1500
451.84	62.1500
452.19	62.8000
452.55	61.6000
452.90	62.4000
453.26	61.3000
453.61	60.9000
453.96	60.9000
454.32	62.9500
454.67	62.3500
455.02	61.8500
455.38	61.8500
455.73	61.0500
456.09	61.0000
456.44	61.1000
456.79	59.7500
457.15	60.4500
457.50	59.4500
457.85	62.3000
458.21	61.6500
458.56	61.8500
458.91	62.5000
459.27	61.8500
459.62	61.6500
459.97	60.3500
460.32	60.1000
460.68	62.5500
461.03	61.1500
461.38	61.1500
461.74	61.4500
462.09	61.6500
462.44	60.8000
462.80	60.7500
463.15	61.5500
463.50	60.2000
463.85	61.7000
464.21	62.0000
464.56	62.3000
464.91	60.9500
465.26	60.9500
465.62	60.8500
465.97	61.3000
466.32	62.1500
466.67	60.4000
467.03	61.1000
467.38	61.8000
467.73	59.9500
468.08	62.1500
468.44	64.0000
468.79	63.0000
469.14	60.3500
469.49	61.2000
469.85	60.9000
470.20	61.2000
470.55	60.9000
470.90	61.1500
471.25	61.9500
471.61	61.1000
471.96	62.2000
472.31	61.1000
472.66	61.7000
473.01	61.7500
473.36	60.0000
473.72	59.5000
474.07	61.3000
474.42	61.4000
474.77	61.2000
475.12	61.4500
475.47	62.3000
475.83	61.7000
476.18	60.4000
476.53	61.8000
476.88	59.9000
477.23	61.5500
477.58	62.5000
477.93	62.0000
478.28	61.6500
478.64	62.0500
478.99	61.0000
479.34	60.9000
479.69	62.7500
480.04	60.9000
480.39	61.9000
480.74	61.2500
481.09	61.4500
481.44	61.8500
481.79	61.7000
482.15	62.8000
482.50	61.8000
482.85	60.9500
483.20	60.5000
483.55	60.6000
483.90	61.4000
484.25	62.1500
484.60	61.8500
484.95	61.7500
485.30	62.1000
485.65	60.3000
486.00	59.8500
486.35	60.8000
486.70	61.1500
487.05	61.7000
487.40	61.0000
487.75	62.7000
488.10	60.5500
488.45	61.0500
488.80	61.9000
489.15	60.5500
489.50	60.7500
489.85	61.4500
490.20	62.0000
490.55	60.9500
490.90	61.6500
491.25	60.6000
491.60	60.9000
491.95	61.7000
492.30	61.2500
492.65	61.3000
493.00	62.1000
493.35	60.0000
493.70	61.9000
494.05	61.6000
494.40	61.0500
494.75	61.3000
495.10	61.3500
495.45	61.3000
495.80	61.2000
496.15	60.9500
496.50	60.9500
496.84	62.2000
497.19	62.3500
497.54	62.8500
497.89	61.0500
498.24	61.1000
498.59	61.2000
498.94	61.7000
499.29	61.1500
499.64	60.5000
499.99	61.5000
500.33	60.9000
500.68	62.4500
501.03	62.6500
501.38	61.2500
501.73	61.2500
502.08	60.7000
502.43	60.9000
502.77	60.8500
503.12	61.7000
503.47	61.3500
503.82	61.3500
504.17	61.6500
504.52	62.6000
504.86	62.3500
505.21	61.0000
505.56	64.3000
505.91	61.8000
506.26	60.1000
506.61	61.6500
506.95	61.7500
507.30	61.7000
507.65	62.3500
508.00	61.1500
508.35	60.8000
508.69	61.1000
509.04	60.7000
509.39	61.8500
509.74	60.9500
510.08	61.6500
510.43	61.1000
510.78	61.2000
511.13	60.5000
511.47	61.2500
511.82	61.4500
512.17	60.4000
512.52	61.1500
512.86	62.0500
513.21	61.0000
513.56	61.7500
513.91	62.6500
514.25	62.4500
514.60	62.8500
514.95	61.9000
515.30	61.6500
515.64	60.9000
515.99	61.3500
516.34	61.1500
516.68	61.2000
517.03	63.0000
517.38	62.4000
517.72	62.5000
518.07	61.3000
518.42	60.5000
518.76	61.2500
519.11	62.3500
519.46	62.3000
519.80	61.5000
520.15	61.7500
520.50	61.9500
520.84	62.2000
521.19	62.3000
521.54	61.5000
521.88	61.3000
522.23	62.4000
522.58	62.5000
522.92	62.6000
523.27	61.7000
523.61	61.6500
523.96	61.3000
524.31	62.9000
524.65	61.6000
525.00	61.2000
525.34	62.2500
525.69	62.5500
526.04	63.8500
526.38	62.8000
526.73	63.1000
527.07	62.4500
527.42	62.4500
527.76	61.7000
528.11	62.3500
528.46	63.2000
528.80	62.9000
529.15	63.0000
529.49	63.5000
529.84	62.8500
530.18	63.3000
530.53	63.7000
530.87	62.8000
531.22	62.9000
531.56	62.9500
531.91	63.7000
532.25	64.1500
532.60	62.8000
532.94	63.4500
533.29	64.4000
533.63	63.8500
533.98	64.2000
534.32	63.1000
534.67	63.4000
535.01	63.8500
535.36	63.9500
535.70	64.7500
536.05	65.9500
536.39	64.5000
536.74	65.4500
537.08	65.8000
537.43	64.4500
537.77	65.2500
538.12	66.5500
538.46	65.7500
538.80	66.2500
539.15	68.5500
539.49	64.3000
539.84	66.3500
540.18	66.6500
540.53	65.7000
540.87	65.6500
541.21	66.7000
541.56	65.4000
541.90	67.4000
542.25	67.2000
542.59	67.3500
542.93	68.2500
543.28	69.2000
543.62	67.8500
543.97	69.1000
544.31	68.5000
544.65	68.7000
545.00	70.8000
545.34	69.8500
545.68	70.0500
546.03	70.5500
546.37	70.8500
546.71	69.1000
547.06	69.2000
547.40	69.2500
547.74	71.3000
548.09	72.0500
548.43	72.5500
548.77	70.7000
549.12	71.4000
549.46	73.5000
549.80	73.6500
550.15	73.1500
550.49	73.0000
550.83	74.0500
551.17	74.0500
551.52	75.4000
551.86	74.6500
552.20	74.8500
552.55	76.6500
552.89	76.3500
553.23	75.8000
553.57	76.7000
553.92	77.3000
554.26	77.6500
554.60	78.2500
554.94	78.9000
555.29	80.2000
555.63	81.1500
555.97	79.6000
556.31	80.3500
556.66	79.3500
557.00	79.6500
557.34	80.5500
557.68	81.1500
558.02	81.8500
558.37	82.3000
558.71	85.2500
559.05	84.5000
559.39	85.2500
559.73	87.2000
560.08	84.1500
560.42	87.3000
560.76	88.0000
561.10	88.1500
561.44	87.5500
561.78	89.6000
562.13	89.4500
562.47	88.6500
562.81	91.1000
563.15	90.5500
563.49	90.9000
563.83	92.2500
564.17	93.4000
564.52	93.4000
564.86	94.4000
565.20	94.9000
565.54	96.6500
565.88	96.5000
566.22	97.5500
566.56	98.7000
566.90	99.7500
567.24	102.9000
567.59	103.6500
567.93	105.1000
568.27	107.7500
568.61	110.4000
568.95	109.6500
569.29	110.3500
569.63	111.4500
569.97	115.1500
570.31	118.7000
570.65	120.7000
570.99	121.1000
571.33	120.3000
571.67	120.9000
572.01	123.5500
572.35	126.7500
572.69	129.0500
573.03	130.9500
573.37	133.2500
573.71	135.4000
574.05	135.5000
574.39	136.4000
574.73	134.7500
575.07	135.3500
575.41	137.5000
575.75	139.3500
576.09	144.3000
576.43	151.0000
576.77	156.8500
577.11	161.3500
577.45	155.5000
577.79	151.8500
578.13	153.6000
578.47	151.9000
578.81	154.0500
579.15	155.1000
579.49	157.6000
579.83	166.9000
580.17	177.1000
580.51	185.6500
580.85	190.6000
581.19	182.0000
581.53	178.3000
581.87	169.2000
582.20	164.8000
582.54	161.5000
582.88	162.6000
583.22	166.1000
583.56	174.1500
583.90	183.6000
584.24	189.0000
584.58	190.2000
584.92	187.2000
585.25	183.2500
585.59	181.7500
585.93	185.5000
586.27	193.5500
586.61	190.9500
586.95	192.5500
587.29	191.2000
587.62	191.1500
587.96	187.1000
588.30	187.3500
588.64	184.5000
588.98	187.6500
589.31	188.4500
589.65	187.8500
589.99	185.0500
590.33	187.8500
590.67	188.6500
591.01	189.9000
591.34	203.4000
591.68	212.7500
592.02	224.3000
592.36	224.1000
592.69	220.4500
593.03	216.7500
593.37	215.6000
593.71	218.2000
594.04	221.4000
594.38	225.4500
594.72	222.1500
595.06	218.8000
595.39	218.5500
595.73	219.4500
596.07	223.5500
596.41	227.1500
596.74	255.5000
597.08	231.5500
597.42	235.6000
597.76	243.7500
598.09	248.9500
598.43	248.6000
598.77	251.8000
599.10	257.5000
599.44	259.9500
599.78	261.0000
600.11	261.0000
600.45	263.2500
600.79	259.6000
601.12	257.8500
601.46	262.1000
601.80	269.6000
602.13	272.4500
602.47	277.2500
602.81	280.5000
603.14	276.5000
603.48	274.0000
603.82	275.3000
604.15	274.7000
604.49	286.4500
604.82	288.5500
605.16	287.6000
605.50	286.1500
605.83	292.3000
606.17	295.2000
606.50	298.5500
606.84	297.8000
607.18	298.5000
607.51	295.3000
607.85	297.0500
608.18	295.6000
608.52	301.3000
608.86	308.5500
609.19	313.7000
609.53	310.9000
609.86	310.1000
610.20	312.9500
610.53	312.9500
610.87	310.1500
611.20	314.7500
611.54	310.9500
611.87	316.1000
612.21	318.4500
612.54	319.3000
612.88	319.1500
613.21	326.9500
613.55	330.5500
613.88	335.7500
614.22	342.4000
614.55	344.9000
614.89	341.5000
615.22	334.3000
615.56	330.5500
615.89	335.3000
616.23	334.4500
616.56	334.3500
616.90	339.3000
617.23	338.3000
617.57	340.1000
617.90	336.6000
618.24	337.7000
618.57	343.7500
618.90	345.7000
619.24	349.4000
619.57	344.4500
619.91	342.2000
620.24	333.0500
620.58	343.7500
620.91	352.0000
621.24	357.3500
621.58	362.4000
621.91	362.6000
622.25	369.8500
622.58	368.2000
622.91	368.3500
623.25	367.2500
623.58	371.0000
623.91	371.0500
624.25	365.8500
624.58	366.9000
624.92	367.0500
625.25	367.7000
625.58	365.7500
625.92	369.8500
626.25	374.7500
626.58	380.7000
626.92	374.8500
627.25	373.7000
627.58	370.5000
627.91	376.6500
628.25	382.8500
628.58	386.2000
628.91	382.7500
629.25	385.4500
629.58	382.3000
629.91	383.1500
630.25	384.8500
630.58	383.5500
630.91	381.8500
631.24	383.4500
631.58	384.7000
631.91	384.1000
632.24	375.8000
632.57	382.2500
632.91	388.1500
633.24	385.4500
633.57	385.8000
633.90	387.8500
634.24	390.6500
634.57	390.9500
634.90	398.9500
635.23	398.5000
635.56	405.2000
635.90	403.6000
636.23	404.4500
636.56	405.3000
636.89	408.9000
637.22	410.6000
637.56	410.9000
637.89	406.4000
638.22	411.4500
638.55	409.0500
638.88	403.1500
639.21	412.4000
639.55	410.3000
639.88	411.6500
640.21	410.8000
640.54	409.6500
640.87	412.7500
641.20	411.2500
641.53	410.6000
641.87	414.3000
642.20	417.2500
642.53	419.6000
642.86	419.0500
643.19	422.1000
643.52	421.9500
643.85	420.2000
644.18	422.3500
644.51	421.9500
644.84	424.9000
645.18	423.5500
645.51	425.0000
645.84	426.0500
646.17	423.5500
646.50	425.2500
646.83	434.7500
647.16	433.7500
647.49	446.3000
647.82	454.3500
648.15	457.8000
648.48	456.5000
648.81	456.4000
649.14	446.8000
649.47	448.3500
649.80	448.3500
650.13	446.0000
650.46	454.9000
650.79	456.0000
651.12	461.5500
651.45	460.3500
651.78	458.4500
652.11	463.1500
652.44	461.6000
652.77	461.6500
653.10	461.5000
653.43	464.2500
653.76	467.2500
654.09	482.7500
654.42	724.0500
654.75	1399.9000
655.08	1777.9000
655.41	1910.2500
655.74	1433.1500
656.07	1060.0000
656.39	837.2500
656.72	687.4000
657.05	588.1500
657.38	534.9000
657.71	506.3000
658.04	489.0000
658.37	481.6500
658.70	477.1000
659.03	474.8000
659.36	476.1500
659.68	474.2500
660.01	475.4500
660.34	473.8500
660.67	475.8500
661.00	477.6000
661.33	474.3500
661.66	474.9500
661.98	476.9500
662.31	475.2500
662.64	474.2500
662.97	478.8500
663.30	482.0000
663.63	483.7500
663.95	486.9500
664.28	486.2000
664.61	486.3500
664.94	487.7000
665.27	481.6500
665.59	482.4500
665.92	482.0500
666.25	482.0500
666.58	480.8000
666.91	490.1000
667.23	485.2500
667.56	481.2500
667.89	484.0000
668.22	488.9000
668.54	489.8000
668.87	493.7500
669.20	487.7000
669.53	491.9500
669.85	492.7000
670.18	489.7500
670.51	496.9500
670.83	505.9500
671.16	516.9000
671.49	520.6500
671.82	513.7500
672.14	510.1000
672.47	503.7000
672.80	505.7000
673.12	500.0000
673.45	503.2500
673.78	494.3500
674.10	502.2500
674.43	498.3000
674.76	500.4500
675.08	503.4000
675.41	499.0000
675.74	498.5500
676.06	496.8500
676.39	495.4000
676.72	500.2000
677.04	500.6500
677.37	506.5500
677.69	507.1000
678.02	504.4500
678.35	507.2500
678.67	511.8000
679.00	524.5500
679.32	520.6500
679.65	513.0000
679.98	512.6000
680.30	511.2500
680.63	507.2000
680.95	510.4000
681.28	512.2500
681.60	502.8500
681.93	497.3000
682.26	498.0000
682.58	499.0000
682.91	502.2000
683.23	505.9000
683.56	509.4500
683.88	517.6000
684.21	521.8000
684.53	533.4000
684.86	534.1500
685.18	527.0500
685.51	520.5500
685.83	514.5500
686.16	506.1000
686.48	506.2000
686.81	508.9000
687.13	504.0500
687.46	497.2500
687.78	498.3500
688.11	495.6000
688.43	496.7500
688.76	497.0500
689.08	493.5500
689.41	489.1500
689.73	488.0500
690.05	495.1000
690.38	501.6000
690.70	503.5000
691.03	501.0500
691.35	498.5500
691.68	491.8500
692.00	495.8500
692.32	501.2500
692.65	495.8000
692.97	493.3500
693.29	485.9500
693.62	479.2500
693.94	481.7000
694.27	481.6000
694.59	476.0500
694.91	481.5000
695.24	479.1500
695.56	468.7000
695.88	479.8500
696.21	487.0000
696.53	494.4500
696.85	499.6500
697.18	492.2500
697.50	486.5500
697.82	486.9500
698.15	481.6000
698.47	471.6000
698.79	474.5000
699.12	473.4000
699.44	460.9500
699.76	459.4500
700.09	460.6000
700.41	462.2000
700.73	460.8000
701.05	464.6000
701.38	461.2000
701.70	473.5500
702.02	472.5500
702.34	468.3500
702.67	470.1000
702.99	466.0000
703.31	462.1500
703.63	462.4000
703.96	459.6500
704.28	456.5000
704.60	450.2500
704.92	455.3500
705.25	456.6500
705.57	464.5000
705.89	475.7000
706.21	486.7500
706.53	491.9000
706.86	487.0000
707.18	484.3000
707.50	480.8000
707.82	474.6500
708.14	477.7500
708.46	476.6000
708.79	469.0500
709.11	470.5000
709.43	468.7500
709.75	467.8500
710.07	467.0000
710.39	467.7000
710.71	460.7500
711.04	456.7000
711.36	455.3500
711.68	454.2000
712.00	456.5500
712.32	460.7500
712.64	460.3000
712.96	466.7000
713.28	459.6500
713.60	465.6000
713.92	460.3000
714.24	460.5000
714.57	456.6000
714.89	454.5000
715.21	445.6000
715.53	441.0000
715.85	441.3000
716.17	441.6500
716.49	439.7000
716.81	437.4000
717.13	442.5000
717.45	444.4000
717.77	441.5000
718.09	442.0000
718.41	448.9000
718.73	448.6500
719.05	442.4500
719.37	433.8000
719.69	438.4000
720.01	437.8000
720.33	431.9500
720.65	434.2500
720.97	435.5000
721.29	435.3500
721.61	434.8500
721.93	432.2500
722.25	424.9500
722.57	424.7000
722.89	427.9000
723.21	430.1000
723.52	424.7000
723.84	420.6500
724.16	425.9500
724.48	431.7500
724.80	431.5000
725.12	432.3000
725.44	430.6000
725.76	427.4500
726.08	429.4000
726.40	420.9000
726.72	422.3500
727.03	426.5000
727.35	426.2000
727.67	423.9500
727.99	421.0500
728.31	423.9000
728.63	420.4500
728.95	426.9000
729.26	421.8000
729.58	428.0000
729.90	428.4500
730.22	427.1500
730.54	433.4500
730.86	431.8500
731.17	432.4000
731.49	426.2000
731.81	423.8000
732.13	417.5500
732.45	413.5500
732.76	416.9000
733.08	420.1500
733.40	425.7500
733.72	426.8000
734.03	421.3000
734.35	418.2000
734.67	415.5000
734.99	415.4500
735.30	413.2000
735.62	414.6500
735.94	413.6000
736.26	411.7000
736.57	406.3500
736.89	407.5000
737.21	393.7500
737.53	392.9000
737.84	392.5000
738.16	399.8000
738.48	405.7000
738.79	409.5500
739.11	407.5500
739.43	398.4000
739.74	390.1000
740.06	386.0500
740.38	377.7500
740.69	374.4000
741.01	374.5500
741.33	373.5500
741.64	375.0500
741.96	372.6500
742.28	375.6000
742.59	366.2500
742.91	362.2500
743.23	359.8000
743.54	364.1000
743.86	360.8000
744.17	358.4000
744.49	357.6500
744.81	357.1500
745.12	356.8000
745.44	353.0500
745.75	352.7000
746.07	350.2000
746.38	352.0500
746.70	354.0000
747.02	354.2500
747.33	348.7500
747.65	347.2000
747.96	346.5000
748.28	347.0500
748.59	348.5000
748.91	349.4500
749.22	353.0000
749.54	353.5500
749.85	358.1500
750.17	355.2500
750.48	349.3000
750.80	348.1000
751.11	347.7000
751.43	345.7500
751.74	344.6000
752.06	339.8500
752.37	341.4500
752.69	345.7000
753.00	350.7000
753.32	351.4500
753.63	350.6000
753.95	344.6000
754.26	340.4500
754.58	344.9000
754.89	345.5000
755.20	346.3500
755.52	349.4500
755.83	354.4500
756.15	362.7500
756.46	366.1500
756.78	370.1000
757.09	372.8500
757.40	373.4500
757.72	366.1000
758.03	356.8000
758.34	352.5000
758.66	354.9000
758.97	359.0000
759.29	361.3000
759.60	363.4500
759.91	358.1500
760.23	363.0000
760.54	359.8000
760.85	354.1000
761.17	348.5000
761.48	342.4000
761.79	336.6500
762.11	337.5000
762.42	340.4000
762.73	343.9500
763.05	342.9500
763.36	350.0000
763.67	351.8000
763.98	355.5500
764.30	355.1500
764.61	356.0000
764.92	349.1000
765.23	344.9500
765.55	330.0000
765.86	324.0000
766.17	321.3500
766.48	315.8000
766.80	310.4500
767.11	319.0500
767.42	318.3000
767.73	326.2500
768.05	335.3000
768.36	340.1500
768.67	339.1500
768.98	328.9000
769.29	327.0000
769.61	322.2000
769.92	317.6000
770.23	322.1000
770.54	317.6000
770.85	320.0000
771.17	316.8500
771.48	311.9500
771.79	312.2500
772.10	308.1500
772.41	310.3500
772.72	305.2500
773.03	304.0000
773.35	299.9000
773.66	293.4000
773.97	294.0000
774.28	291.4000
774.59	289.3500
774.90	291.9000
775.21	292.3000
775.52	288.3500
775.83	288.9500
776.15	285.2000
776.46	281.7000
776.77	283.9500
777.08	282.3500
777.39	284.2500
777.70	282.9000
778.01	285.2000
778.32	288.3000
778.63	292.4000
778.94	288.9000
779.25	286.7500
779.56	281.7500
779.87	282.1500
780.18	279.3500
780.49	287.7500
780.80	290.7000
781.11	291.9000
781.42	289.0000
781.73	285.4500
782.04	277.5500
782.35	275.4000
782.66	274.9000
782.97	276.7000
783.28	280.5500
783.59	274.0000
783.90	269.6000
784.21	264.9000
784.52	263.7500
784.83	263.0000
785.14	265.2500
785.45	266.3000
785.76	261.7000
786.06	261.6500
786.37	260.4500
786.68	260.6500
786.99	260.6000
787.30	262.4500
787.61	264.0500
787.92	260.8500
788.23	260.2500
788.54	260.8500
788.84	258.0500
789.15	252.5500
789.46	249.1000
789.77	245.3000
790.08	243.6500
790.39	242.0000
790.70	248.1000
791.00	245.5000
791.31	242.1500
791.62	243.5500
791.93	237.8500
792.24	237.2500
792.54	236.6000
792.85	235.5000
793.16	244.1500
793.47	252.2000
793.78	258.4000
794.08	257.2000
794.39	250.0500
794.70	246.7500
795.01	240.4500
795.31	234.6500
795.62	227.4000
795.93	226.5500
796.24	224.0000
796.54	221.3500
796.85	224.9000
797.16	223.0000
797.47	220.5000
797.77	221.1500
798.08	218.8500
798.39	219.8000
798.69	222.6000
799.00	220.0500
799.31	216.2000
799.62	216.5000
799.92	214.5500
800.23	214.1000
800.54	214.0000
800.84	212.0500
801.15	212.5000
801.46	208.8000
801.76	208.5500
802.07	206.0000
802.37	208.6500
802.68	208.3000
802.99	209.2000
803.29	206.8500
803.60	202.3500
803.91	199.3500
804.21	202.0500
804.52	202.7000
804.82	200.5500
805.13	206.5500
805.44	206.9000
805.74	207.7500
806.05	210.9000
806.35	208.2000
806.66	202.8000
806.96	200.4000
807.27	199.0500
807.57	199.4000
807.88	198.6500
808.19	199.3000
808.49	196.5500
808.80	195.8000
809.10	195.0500
809.41	193.0500
809.71	190.1500
810.02	190.0000
810.32	187.1500
810.63	187.6500
810.93	188.5000
811.24	185.8000
811.54	185.5000
811.85	183.4000
812.15	182.4500
812.45	180.9500
812.76	180.4000
813.06	184.0000
813.37	185.7500
813.67	187.5500
813.98	186.0500
814.28	179.6500
814.58	178.4000
814.89	175.9000
815.19	174.7500
815.50	174.3000
815.80	173.1500
816.11	174.0000
816.41	176.2000
816.71	176.5500
817.02	174.6000
817.32	176.5000
817.62	173.8000
817.93	172.8500
818.23	170.7000
818.53	170.0500
818.84	171.6000
819.14	167.9500
819.44	168.4000
819.75	170.2500
820.05	168.4500
820.35	170.5500
820.66	170.2000
820.96	170.4000
821.26	166.0500
821.57	165.7000
821.87	163.1500
822.17	161.1500
822.48	161.6000
822.78	161.3000
823.08	160.3000
823.38	160.2500
823.69	159.7500
823.99	161.1500
824.29	159.7500
824.59	158.9000
824.90	160.1000
825.20	159.4500
825.50	158.8000
825.80	159.2500
826.10	159.1500
826.41	158.2500
826.71	161.4500
827.01	160.4500
827.31	159.2000
827.61	160.3500
827.92	157.5000
828.22	155.0000
828.52	153.2000
828.82	153.1000
829.12	151.2000
829.42	153.9500
829.73	149.9500
830.03	147.8500
830.33	147.9500
830.63	147.9000
830.93	146.5500
831.23	144.7000
831.53	147.3500
831.83	143.5500
832.14	143.2500
832.44	146.0000
832.74	142.6000
833.04	143.7000
833.34	147.2000
833.64	145.1500
833.94	144.0500
834.24	143.2500
834.54	143.6500
834.84	142.1500
835.14	141.6500
835.44	141.0500
835.74	141.5500
836.04	138.9000
836.34	138.3500
836.64	138.0000
836.95	136.7500
837.25	135.0500
837.55	136.5000
837.85	133.3500
838.15	135.4000
838.45	133.3000
838.74	134.1000
839.04	133.1500
839.34	134.9000
839.64	131.8000
839.94	131.5500
840.24	132.0500
840.54	132.8000
840.84	134.2000
841.14	132.7000
841.44	132.1500
841.74	130.6500
842.04	128.7500
842.34	129.9000
842.64	127.2500
842.94	128.0000
843.24	126.0000
843.53	126.7500
843.83	127.9500
844.13	126.8500
844.43	124.5500
844.73	125.1000
845.03	124.1000
845.33	122.9000
845.63	125.5000
845.92	123.0000
846.22	123.0500
846.52	123.3500
846.82	122.3000
847.12	122.0000
847.42	121.8500
847.71	122.3500
848.01	120.9500
848.31	119.2500
848.61	120.1000
848.91	119.5000
849.20	120.4000
849.50	120.7000
849.80	121.2000
850.10	120.2500
850.39	120.4500
850.69	118.4000
850.99	117.7500
851.29	116.0500
851.59	116.0000
851.88	119.5500
852.18	118.7000
852.48	119.5500
852.77	118.4000
853.07	117.9500
853.37	119.5500
853.67	117.5000
853.96	117.2000
854.26	116.3500
854.56	116.5000
854.85	117.5000
855.15	116.2500
855.45	114.3000
855.74	114.6000
856.04	112.4000
856.34	113.0000
856.63	114.0500
856.93	112.1000
857.23	113.0000
857.52	111.4500
857.82	112.6500
858.11	112.4000
858.41	109.6000
858.71	110.7000
859.00	108.4000
859.30	107.3000
859.59	107.2500
859.89	106.2000
860.19	106.0000
860.48	106.0000
860.78	106.3000
861.07	106.2500
861.37	105.4000
861.66	105.3000
861.96	104.4500
862.26	105.0500
862.55	103.2000
862.85	104.8000
863.14	103.6000
863.44	104.3000
863.73	103.5000
864.03	102.5000
864.32	104.0000
864.62	101.1500
864.91	101.9000
865.21	99.8500
865.50	101.4000
865.80	100.9500
866.09	100.8500
866.39	99.7500
866.68	99.2000
866.97	99.3000
867.27	100.0000
867.56	97.8000
867.86	96.7500
868.15	97.6000
868.45	97.7500
868.74	99.1500
869.03	97.7000
869.33	97.7500
869.62	97.5500
869.92	96.4500
870.21	94.2500
870.50	94.4500
870.80	95.2500
871.09	94.6000
871.39	95.2000
871.68	96.7000
871.97	93.4500
872.27	93.5500
872.56	92.4500
872.85	91.9000
873.15	92.7500
873.44	91.7500
873.73	90.5500
874.03	92.3500
874.32	92.2500
874.61	91.8000
874.90	92.2500
875.20	90.7000
875.49	89.5500
875.78	90.9000